pink,pra_duration,emo_pic,duration,pra_trials.thisRepN,pra_trials.thisTrialN,pra_trials.thisN,pra_trials.thisIndex,trials.thisRepN,trials.thisTrialN,trials.thisN,trials.thisIndex,textreproductionstart.started,scale.started,key_next.started,scale.response,scale.rt,key_next.keys,key_next.rt,textWelcomeMessage.started,keyWelcome.started,keyWelcome.keys,keyWelcome.rt,textblank1000.started,sound_1.started,textblank1000.stopped,image.started,image.stopped,textrest.started,textready.started,sound_2.started,textrest.stopped,textready.stopped,text.started,key_resp.started,key_resp.keys,key_resp.rt,emopic.started,emopic.stopped,participant,session,date,expName,psychopyVersion,frameRate,
,,,,,,,,,,,,10.050436399993487,10.050436399993487,10.050436399993487,2.0717592592592595,427.2662174999714,space,525.9771813000552,,,,,,,,,,,,,,,,,,,,,002,001,2023-05-31_12h58.18.969,time_exp,2022.2.5,59.99264491556864,
,,,,,,,,,,,,,,,,,,,536.0452690999955,536.0452690999955,space,4.766938199987635,,,,,,,,,,,,,,,,,002,001,2023-05-31_12h58.18.969,time_exp,2022.2.5,59.99264491556864,
pink.png,2,,,0,0,0,1,,,,,543.9787385000382,543.9787385000382,543.9787385000382,3.055555555555556,3.9003428000723943,space,14.09628309996333,,,,,540.8453192999586,540.8453520899639,541.9620294000488,541.9620294000488,543.9787385000382,558.0956190000288,583.0792650000658,583.0793123900658,583.095970400027,588.0794320000568,,,,,,,002,001,2023-05-31_12h58.18.969,time_exp,2022.2.5,59.99264491556864,
pink.png,6,,,0,1,1,2,,,,,595.129529900034,595.129529900034,595.129529900034,7.037037037037036,3.0335954999318346,space,15.682341800071299,,,,,588.0794320000568,588.0794196900679,589.112741000019,589.112741000019,595.129529900034,610.8464456000365,635.8302153999684,635.830201589968,635.846836199984,640.8302498999983,,,,,,,002,001,2023-05-31_12h58.18.969,time_exp,2022.2.5,59.99264491556864,
pink.png,4,,,0,2,2,0,,,,,645.8803371000104,645.8803371000104,645.8803371000104,6.018518518518519,3.000297600054182,space,12.978866700083017,,,,,640.8302498999983,640.8302482899744,641.8635708000511,641.8635708000511,645.8803371000104,658.8971897000447,683.8809312999947,683.8809283900773,683.8975622999715,688.8810066999868,,,,,,,002,001,2023-05-31_12h58.18.969,time_exp,2022.2.5,59.99264491556864,
,,,,,,,,,,,,,,,,,,,,,,,,,,,,,,,,,688.8810066999868,688.8810066999868,space,3.0502469999482855,,,002,001,2023-05-31_12h58.18.969,time_exp,2022.2.5,59.99264491556864,
,,emo_pic\pnegative_low_6010.jpg,3,,,,,0,0,0,5,696.0307832000544,696.0307832000544,696.0307832000544,4.004629629629629,2.867108999984339,space,8.140636999974959,,,,,691.9643587999744,691.9643199900165,693.0146512000356,,,704.2145813000388,729.1983093000017,729.198301490047,729.2149757000152,734.198390900041,,,,,693.0146512000356,696.0307832000544,002,001,2023-05-31_12h58.18.969,time_exp,2022.2.5,59.99264491556864,
,,emo_pic\pneutral_7950.jpg,7,,,,,0,1,1,3,742.2313957000151,742.2313957000151,742.2313957000151,11.030092592592592,3.3335491999750957,space,7.540819099987857,,,,,734.198390900041,734.1983860899927,735.2150729000568,,,749.7983216000721,774.7823595000664,774.7823537900113,774.7990211000433,779.7824327000417,,,,,735.2150729000568,742.2313957000151,002,001,2023-05-31_12h58.18.969,time_exp,2022.2.5,59.99264491556864,
,,emo_pic\positive_low_2314.jpg,5,,,,,0,2,2,14,785.8321206000401,785.8321206000401,785.8321206000401,8.00925925925926,2.7502322000218555,space,10.563831400009803,,,,,779.7824327000417,779.7824423899874,780.8157961000688,,,796.415574899991,821.3997507999884,821.3997445900459,821.4164255000651,826.399802000029,,,,,780.8157961000688,785.8321206000401,002,001,2023-05-31_12h58.18.969,time_exp,2022.2.5,59.99264491556864,
,,emo_pic\pnegative_low_9331.jpg,1,,,,,0,3,3,4,828.4330609999597,828.4330609999597,828.4330609999597,0.9953703703703707,4.3669116999953985,space,9.338204900035635,,,,,826.399802000029,826.399833190022,827.4165193999652,,,837.8165194999892,862.8004068000009,862.8004021900706,862.8169872000581,867.800478399964,,,,,827.4165193999652,828.4330609999597,002,001,2023-05-31_12h58.18.969,time_exp,2022.2.5,59.99264491556864,
,,emo_pic\pnegative_high_1120.jpg,7,,,,,0,4,4,11,875.8335042999825,875.8335042999825,875.8335042999825,12.002314814814813,3.650231000036001,space,20.609996199957095,,,,,867.800478399964,867.8004834899912,868.8171293999767,,,896.4671282999916,921.4513375000097,921.4513360899873,921.46793360007,926.4514310000231,,,,,868.8171293999767,875.8335042999825,002,001,2023-05-31_12h58.18.969,time_exp,2022.2.5,59.99264491556864,
,,emo_pic\positive_low_7325.jpg,3,,,,,0,5,5,13,930.4843633000273,930.4843633000273,930.4843633000273,5.05787037037037,3.466914699994959,space,15.223121599992737,,,,,926.4514310000231,926.4514250899665,927.4680680000456,,,945.7345733999973,970.7187933999812,970.718793589971,970.7354377000593,975.7188751000213,,,,,927.4680680000456,930.4843633000273,002,001,2023-05-31_12h58.18.969,time_exp,2022.2.5,59.99264491556864,
,,emo_pic\pneutral_7100.jpg,3,,,,,0,6,6,1,979.7684594000457,979.7684594000457,979.7684594000457,5.05787037037037,1.7836725000524893,space,13.8120052999584,,,,,975.7188751000213,975.7188730899943,976.7522337000119,,,993.6020361999981,1018.5862371000694,1018.586240989971,1018.602910400019,1023.5863227000227,,,,,976.7522337000119,979.7684594000457,002,001,2023-05-31_12h58.18.969,time_exp,2022.2.5,59.99264491556864,
,,emo_pic\pnegative_low_2520.jpg,5,,,,,0,7,7,6,1029.6193042000523,1029.6193042000523,1029.6193042000523,7.013888888888889,5.516980299958959,space,17.43280109995976,,,,,1023.5863227000227,1023.5863186899805,1024.6030134999892,,,1047.0695910999784,1072.0537876000162,1072.0537861899938,1072.0704576000571,1077.0538726999657,,,,,1024.6030134999892,1029.6193042000523,002,001,2023-05-31_12h58.18.969,time_exp,2022.2.5,59.99264491556864,
,,emo_pic\pnegative_low_2100.jpg,7,,,,,0,8,8,7,1085.0871462000068,1085.0871462000068,1085.0871462000068,10.05787037037037,6.366897900006734,space,17.820675200084224,,,,,1077.0538726999657,1077.0538500900147,1078.0705133000156,,,1102.9374290000414,1127.9213546999963,1127.921342490008,1127.9380024999846,1132.9214245000621,,,,,1078.0705133000156,1085.0871462000068,002,001,2023-05-31_12h58.18.969,time_exp,2022.2.5,59.99264491556864,
,,emo_pic\positive_high_8300.jpg,3,,,,,0,9,9,17,1136.954387200065,1136.954387200065,1136.954387200065,5.416666666666667,3.3835988000500947,space,12.32179429999087,,,,,1132.9214245000621,1132.9214269900694,1133.938042600057,,,1149.3045886000618,1174.28842170001,1174.288428590051,1174.3050929000601,1179.2888372000307,,,,,1133.938042600057,1136.954387200065,002,001,2023-05-31_12h58.18.969,time_exp,2022.2.5,59.99264491556864,
,,emo_pic\positive_high_8370.jpg,7,,,,,0,10,10,19,1187.338504299987,1187.338504299987,1187.338504299987,9.49074074074074,4.083613599999808,space,14.273555299965665,,,,,1179.2888372000307,1179.2888261900516,1180.3221845000517,,,1201.638730400009,1226.62260100001,1226.622570489999,1226.6392286999617,1231.6229973000009,,,,,1180.3221845000517,1187.338504299987,002,001,2023-05-31_12h58.18.969,time_exp,2022.2.5,59.99264491556864,
,,emo_pic\pnegative_high_1300.jpg,3,,,,,0,11,11,9,1235.6559637000319,1235.6559637000319,1235.6559637000319,3.4375000000000004,3.3335265000350773,space,21.9236791000003,,,,,1231.6229973000009,1231.6229955899762,1232.6396850000601,,,1257.6062944000587,1282.5904876000714,1282.5904851900414,1282.6071256999858,1287.5905680999858,,,,,1232.6396850000601,1235.6559637000319,002,001,2023-05-31_12h58.18.969,time_exp,2022.2.5,59.99264491556864,
,,emo_pic\pnegative_high_6230.jpg,1,,,,,0,12,12,8,1289.6237842000555,1289.6237842000555,1289.6237842000555,1.354166666666667,3.400260799913667,space,23.173517300048843,,,,,1287.5905680999858,1287.5905746900244,1288.6072237000335,,,1312.8407940999605,1337.8247011000058,1337.8246675899718,1337.841370500042,1342.8247799000237,,,,,1288.6072237000335,1289.6237842000555,002,001,2023-05-31_12h58.18.969,time_exp,2022.2.5,59.99264491556864,
,,emo_pic\positive_low_2156.jpg,7,,,,,0,13,13,15,1350.8577925000573,1350.8577925000573,1350.8577925000573,11.481481481481483,3.6669309000717476,space,8.786095299990848,,,,,1342.8247799000237,1342.8247553900583,1343.8414305000333,,,1359.6745929999743,1384.658770799986,1384.6587748900056,1384.675441600033,1389.6588522000238,,,,,1343.8414305000333,1350.8577925000573,002,001,2023-05-31_12h58.18.969,time_exp,2022.2.5,59.99264491556864,
,,emo_pic\positive_low_7340.jpg,1,,,,,0,14,14,12,1391.7084372000536,1391.7084372000536,1391.7084372000536,0.7060185185185184,5.73362630000338,space,12.623182200011797,,,,,1389.6588522000238,1389.6588550900342,1390.6922099000076,,,1404.3586303000338,1429.3423608000157,1429.3423669900512,1429.3590342999669,1434.342452300014,,,,,1390.6922099000076,1391.7084372000536,002,001,2023-05-31_12h58.18.969,time_exp,2022.2.5,59.99264491556864,
,,emo_pic\positive_high_8492.jpg,1,,,,,0,15,15,16,1436.375820999965,1436.375820999965,1436.375820999965,0.4976851851851849,5.9507630000589415,space,14.564910899964161,,,,,1434.342452300014,1434.3424484899733,1435.359140100074,,,1450.9765145999845,1475.9602374000242,1475.960229390068,1475.9768982999958,1480.9603089999873,,,,,1435.359140100074,1436.375820999965,002,001,2023-05-31_12h58.18.969,time_exp,2022.2.5,59.99264491556864,
,,emo_pic\pneutral_7233.jpg,5,,,,,0,16,16,2,1486.9932799000526,1486.9932799000526,1486.9932799000526,6.770833333333333,5.267421199940145,space,10.763393300003372,,,,,1480.9603089999873,1480.96031219,1481.9769615000114,,,1497.7772044000449,1522.7609673000406,1522.7609656900167,1522.7775986000197,1527.761050799978,,,,,1481.9769615000114,1486.9932799000526,002,001,2023-05-31_12h58.18.969,time_exp,2022.2.5,59.99264491556864,
,,emo_pic\positive_high_5621.jpg,5,,,,,0,17,17,18,1533.8106881000567,1533.8106881000567,1533.8106881000567,7.638888888888889,3.4168421999784186,space,7.817866299999878,,,,,1527.761050799978,1527.76104649005,1528.7944020000286,,,1541.6775855000596,1566.661649900023,1566.6616556900553,1566.6782992000226,1571.66173469997,,,,,1528.7944020000286,1533.8106881000567,002,001,2023-05-31_12h58.18.969,time_exp,2022.2.5,59.99264491556864,
,,emo_pic\pnegative_high_1201.jpg,5,,,,,0,18,18,10,1577.7113752000732,1577.7113752000732,1577.7113752000732,7.5925925925925934,3.366914900019765,space,20.140443500014953,,,,,1571.66173469997,1571.66174279002,1572.6950835000025,,,1597.895468599978,1622.879157999996,1622.8791928900173,1622.8958706000121,1627.879285800038,,,,,1572.6950835000025,1577.7113752000732,002,001,2023-05-31_12h58.18.969,time_exp,2022.2.5,59.99264491556864,
,,,,,,,,,,,,1629.9121864000335,1629.9121864000335,1629.9121864000335,0.7870370370370355,3.800338000059128,space,8.899477900005877,,,,,1627.879285800038,1627.8792864900315,1628.8959649000317,,,1638.828964299988,,,,,,,,,1628.8959649000317,1629.9121864000335,,,,,,,
